File: ATXG Data/BKG_XRR.DAT
;Bundle             = 1
;Partition          = 1
;Operator           = N.U. X-ray Dif. Fac
;Gonio              = ATX-G
;Memo               = J.B. Cohen X-ray Diffraction Facility
;IncidentMonochro   = Slit collimation
;CounterMonochro    = Receiving slit
;Attachment         = XY-STAGE
;Filter             =
;SlitName0          = XRR Compression 5*.5
;SlitName1          = Reciprocal SM Slit Collimation
;Counter            = SC-70
;KAlpha1            = 1.54056
;KAlpha2            = 1.54439
;KBata              = 0
;Target             = Cu
;KV                 = 50
;mA                 = 240
;AxisName           = 2Theta/Omega
;MeasurementMethod = Continuation
;Start              = 0
;Finish             = 6
;Speed              = 0.25
;FixedTime          =
;Width              = 0.02
;FullScale         = 1e+08
;Comment            =
;SampleName         =
;Xunit              = deg.
;Yunit              = CPS
0.0000 45096504.0
0.0200 54717296.0
0.0400 49681864.0
0.0600 21911026.0
0.0800 8791000.0
0.1000 3874671.0
0.1200 898580.1
0.1400 213491.5
0.1600 107545.5
0.1800 68965.8
0.2000 60560.4
0.2200 55536.6
0.2400 49215.9
0.2600 43129.0
0.2800 38514.1
0.3000 35611.9
0.3200 33965.7
0.3400 32134.3
0.3600 30504.5
0.3800 29545.0
0.4000 28932.2
0.4200 28273.2
0.4400 26741.4
0.4600 24636.9
0.4800 22475.0
0.5000 19812.5
0.5200 17236.5
0.5400 14570.1
0.5600 12438.7
0.5800 10742.5
0.6000 9151.1
0.6200 7854.1
0.6400 6787.7
0.6600 5993.5
0.6800 5338.3
0.7000 4774.9
0.7200 4203.7
0.7400 3693.9
0.7600 3375.0
0.7800 3001.1
0.8000 2670.6
0.8200 2380.3
0.8400 2184.2
0.8600 2009.8
0.8800 1861.8
0.9000 1786.7
0.9200 1641.8
0.9400 1579.7
0.9600 1459.7
0.9800 1365.5
1.0000 1192.1
1.0200 1069.3
1.0400 996.7
1.0600 856.4
1.0800 744.8
1.1000 659.4
1.1200 591.8
1.1400 552.0
1.1600 472.9
1.1800 441.9
1.2000 420.6
1.2200 371.6
1.2400 344.9
1.2600 337.2
1.2800 308.4
1.3000 281.1
1.3200 270.9
1.3400 259.2
1.3600 241.1
1.3800 231.3
1.4000 228.0
1.4200 222.1
1.4400 227.3
1.4600 241.9
1.4800 242.6
1.5000 247.8
1.5200 259.7
1.5400 251.5
1.5600 293.8
1.5800 279.5
1.6000 288.2
1.6200 283.0
1.6400 291.5
1.6600 294.5
1.6800 289.3
1.7000 266.3
1.7200 255.7
1.7400 252.8
1.7600 231.9
1.7800 215.7
1.8000 212.5
1.8200 171.9
1.8400 176.9
1.8600 170.0
1.8800 149.6
1.9000 125.9
1.9200 128.6
1.9400 121.5
1.9600 118.3
1.9800 107.9
2.0000 111.7
2.0200 102.9
2.0400 105.2
2.0600 108.3
2.0800 109.0
2.1000 103.3
2.1200 95.8
2.1400 101.5
2.1600 91.3
2.1800 98.3
2.2000 94.6
2.2200 87.9
2.2400 97.7
2.2600 92.9
2.2800 94.6
2.3000 97.3
2.3200 101.7
2.3400 95.8
2.3600 96.7
2.3800 100.8
2.4000 102.1
2.4200 105.6
2.4400 95.2
2.4600 100.6
2.4800 106.7
2.5000 101.7
2.5200 95.6
2.5400 93.8
2.5600 81.9
2.5800 78.8
2.6000 84.4
2.6200 77.1
2.6400 74.2
2.6600 68.1
2.6800 65.0
2.7000 56.3
2.7200 57.5
2.7400 58.1
2.7600 50.4
2.7800 54.6
2.8000 55.0
2.8200 55.2
2.8400 51.3
2.8600 47.5
2.8800 49.4
2.9000 44.8
2.9200 40.8
2.9400 45.4
2.9600 48.3
2.9800 50.0
3.0000 42.5
3.0200 41.9
3.0400 45.4
3.0600 45.4
3.0800 41.3
3.1000 40.0
3.1200 45.0
3.1400 42.7
3.1600 42.5
3.1800 38.5
3.2000 42.7
3.2200 43.5
3.2400 42.7
3.2600 39.0
3.2800 44.2
3.3000 39.8
3.3200 42.7
3.3400 40.6
3.3600 41.5
3.3800 37.3
3.4000 34.6
3.4200 36.3
3.4400 32.7
3.4600 32.5
3.4800 31.7
3.5000 33.1
3.5200 29.4
3.5400 28.8
3.5600 33.1
3.5800 27.1
3.6000 28.3
3.6200 25.8
3.6400 27.5
3.6600 25.2
3.6800 27.1
3.7000 22.9
3.7200 26.3
3.7400 25.4
3.7600 27.5
3.7800 24.6
3.8000 22.9
3.8200 23.3
3.8400 22.3
3.8600 18.5
3.8800 22.7
3.9000 23.1
3.9200 22.9
3.9400 19.0
3.9600 22.1
3.9800 22.9
4.0000 18.8
4.0200 21.5
4.0400 21.9
4.0600 19.6
4.0800 23.1
4.1000 20.2
4.1200 20.4
4.1400 17.5
4.1600 23.1
4.1800 16.9
4.2000 17.3
4.2200 20.8
4.2400 22.5
4.2600 14.8
4.2800 15.6
4.3000 16.0
4.3200 17.1
4.3400 14.4
4.3600 17.3
4.3800 15.0
4.4000 14.6
4.4200 13.3
4.4400 16.0
4.4600 15.0
4.4800 17.5
4.5000 14.2
4.5200 14.8
4.5400 14.2
4.5600 15.2
4.5800 14.2
4.6000 14.6
4.6200 12.9
4.6400 13.8
4.6600 11.7
4.6800 13.8
4.7000 10.4
4.7200 11.0
4.7400 13.3
4.7600 9.2
4.7800 10.6
4.8000 10.0
4.8200 12.7
4.8400 10.6
4.8600 10.6
4.8800 7.3
4.9000 9.4
4.9200 10.0
4.9400 8.8
4.9600 7.7
4.9800 9.2
5.0000 12.5
5.0200 13.8
5.0400 6.7
5.0600 9.0
5.0800 10.0
5.1000 8.3
5.1200 7.9
5.1400 8.5
5.1600 11.7
5.1800 7.3
5.2000 9.6
5.2200 8.8
5.2400 9.4
5.2600 7.7
5.2800 8.8
5.3000 9.4
5.3200 7.9
5.3400 8.5
5.3600 6.7
5.3800 7.1
5.4000 9.0
5.4200 7.5
5.4400 7.7
5.4600 6.7
5.4800 8.1
5.5000 7.5
5.5200 7.3
5.5400 6.0
5.5600 7.3
5.5800 10.2
5.6000 7.5
5.6200 6.9
5.6400 8.5
5.6600 7.5
5.6800 5.8
5.7000 9.4
5.7200 7.5
5.7400 9.0
5.7600 7.7
5.7800 6.5
5.8000 6.0
5.8200 5.4
5.8400 7.9
5.8600 7.3
5.8800 6.5
5.9000 6.7
5.9200 7.3
5.9400 5.0
5.9600 6.3
5.9800 6.0
6.0000 7.3