File: ATXG Data/ATXG Data/spec_XRR.DAT
;Bundle             = 1
;Partition          = 1
;Operator           = N.U. X-ray Dif. Fac
;Gonio              = ATX-G
;Memo               = J.B. Cohen X-ray Diffraction Facility
;IncidentMonochro   = Slit collimation
;CounterMonochro    = Receiving slit
;Attachment         = XY-STAGE
;Filter             =
;SlitName0          = XRR Compression 5*.5
;SlitName1          = Reciprocal SM Slit Collimation
;Counter            = SC-70
;KAlpha1            = 1.54056
;KAlpha2            = 1.54439
;KBata              = 0
;Target             = Cu
;KV                 = 50
;mA                 = 240
;AxisName           = 2Theta/Omega
;MeasurementMethod = Continuation
;Start              = 0
;Finish             = 6
;Speed              = 0.25
;FixedTime          =
;Width              = 0.02
;FullScale         = 1e+08
;Comment            =
;SampleName         =
;Xunit              = deg.
;Yunit              = CPS
0.0000 48499252.0
0.0200 58873472.0
0.0400 53145332.0
0.0600 23861702.0
0.0800 10517527.0
0.1000 5876188.0
0.1200 3528164.5
0.1400 2849649.5
0.1600 3070934.5
0.1800 3396848.5
0.2000 3765319.0
0.2200 4133246.8
0.2400 4502580.5
0.2600 4862617.5
0.2800 5228867.5
0.3000 5580777.0
0.3200 6013415.5
0.3400 6352598.5
0.3600 6673641.5
0.3800 6973808.5
0.4000 7271228.0
0.4200 7581814.5
0.4400 7842344.0
0.4600 8134392.0
0.4800 8336920.0
0.5000 8544384.0
0.5200 8692652.0
0.5400 8765549.0
0.5600 8818254.0
0.5800 8705819.0
0.6000 8393852.0
0.6200 7730630.0
0.6400 6576598.5
0.6600 5072704.0
0.6800 3551900.0
0.7000 2268675.5
0.7200 1375425.2
0.7400 851893.8
0.7600 621325.4
0.7800 594005.5
0.8000 667340.5
0.8200 774923.4
0.8400 871378.4
0.8600 933700.2
0.8800 958913.4
0.9000 946142.1
0.9200 897244.6
0.9400 820705.6
0.9600 725185.4
0.9800 627722.9
1.0000 523943.7
1.0200 429573.9
1.0400 342702.1
1.0600 269822.1
1.0800 210270.4
1.1000 164256.5
1.1200 130626.3
1.1400 106351.7
1.1600 90177.7
1.1800 80099.5
1.2000 73588.9
1.2200 69014.6
1.2400 65239.3
1.2600 61447.2
1.2800 57068.8
1.3000 51942.3
1.3200 46613.3
1.3400 41307.7
1.3600 36082.5
1.3800 32195.1
1.4000 29443.6
1.4200 28374.3
1.4400 28552.3
1.4600 30394.5
1.4800 33738.3
1.5000 37925.5
1.5200 42830.9
1.5400 47960.1
1.5600 52793.0
1.5800 57153.0
1.6000 60413.8
1.6200 62499.7
1.6400 63144.3
1.6600 62323.7
1.6800 60243.8
1.7000 57444.1
1.7200 52960.1
1.7400 48135.6
1.7600 42836.1
1.7800 37098.9
1.8000 31754.3
1.8200 26540.7
1.8400 21730.6
1.8600 17752.4
1.8800 14171.7
1.9000 11499.3
1.9200 9328.2
1.9400 7875.3
1.9600 6829.5
1.9800 6170.0
2.0000 5897.4
2.0200 5777.8
2.0400 5719.7
2.0600 5588.9
2.0800 5609.3
2.1000 5460.2
2.1200 5332.1
2.1400 5113.6
2.1600 4894.4
2.1800 4665.2
2.2000 4567.6
2.2200 4522.8
2.2400 4655.3
2.2600 4874.5
2.2800 5136.2
2.3000 5599.9
2.3200 6094.1
2.3400 6701.7
2.3600 7361.6
2.3800 7880.4
2.4000 8325.0
2.4200 8832.7
2.4400 9067.1
2.4600 9119.8
2.4800 8969.3
2.5000 8758.8
2.5200 8395.7
2.5400 7880.6
2.5600 7255.6
2.5800 6554.8
2.6000 5799.8
2.6200 5044.5
2.6400 4325.4
2.6600 3690.2
2.6800 3066.7
2.7000 2582.0
2.7200 2189.6
2.7400 1818.7
2.7600 1570.1
2.7800 1469.3
2.8000 1336.0
2.8200 1239.5
2.8400 1244.1
2.8600 1244.8
2.8800 1269.2
2.9000 1248.7
2.9200 1268.6
2.9400 1233.5
2.9600 1197.3
2.9800 1197.1
3.0000 1166.2
3.0200 1144.1
3.0400 1084.1
3.0600 1074.7
3.0800 1034.5
3.1000 1038.2
3.1200 1030.3
3.1400 1063.9
3.1600 1123.0
3.1800 1155.6
3.2000 1211.3
3.2200 1304.5
3.2400 1315.6
3.2600 1364.7
3.2800 1396.8
3.3000 1412.5
3.3200 1367.2
3.3400 1353.6
3.3600 1307.6
3.3800 1234.5
3.4000 1146.0
3.4200 1099.6
3.4400 1015.2
3.4600 895.6
3.4800 822.2
3.5000 732.9
3.5200 651.3
3.5400 617.7
3.5600 587.4
3.5800 537.4
3.6000 515.7
3.6200 504.6
3.6400 478.6
3.6600 484.8
3.6800 466.1
3.7000 474.8
3.7200 450.6
3.7400 444.0
3.7600 461.3
3.7800 446.5
3.8000 413.9
3.8200 407.3
3.8400 381.6
3.8600 352.6
3.8800 334.5
3.9000 312.2
3.9200 277.8
3.9400 261.7
3.9600 244.0
3.9800 226.1
4.0000 218.6
4.0200 203.8
4.0400 209.8
4.0600 210.7
4.0800 201.7
4.1000 204.4
4.1200 203.2
4.1400 208.4
4.1600 207.5
4.1800 198.4
4.2000 206.9
4.2200 193.2
4.2400 195.0
4.2600 184.6
4.2800 182.1
4.3000 180.2
4.3200 180.7
4.3400 163.8
4.3600 190.5
4.3800 167.7
4.4000 166.9
4.4200 170.9
4.4400 169.4
4.4600 178.4
4.4800 173.4
4.5000 177.5
4.5200 182.5
4.5400 178.2
4.5600 185.2
4.5800 173.8
4.6000 170.9
4.6200 158.2
4.6400 153.8
4.6600 145.4
4.6800 145.6
4.7000 132.9
4.7200 120.0
4.7400 117.5
4.7600 114.8
4.7800 99.0
4.8000 99.0
4.8200 83.8
4.8400 63.8
4.8600 69.4
4.8800 62.3
4.9000 57.7
4.9200 50.6
4.9400 46.9
4.9600 48.3
4.9800 42.1
5.0000 45.8
5.0200 45.6
5.0400 40.4
5.0600 40.8
5.0800 41.5
5.1000 41.3
5.1200 42.9
5.1400 43.3
5.1600 42.3
5.1800 44.2
5.2000 54.6
5.2200 43.1
5.2400 55.0
5.2600 51.7
5.2800 48.3
5.3000 51.9
5.3200 60.0
5.3400 54.0
5.3600 59.4
5.3800 62.7
5.4000 57.9
5.4200 55.2
5.4400 60.2
5.4600 56.3
5.4800 50.4
5.5000 51.5
5.5200 53.5
5.5400 55.0
5.5600 49.8
5.5800 41.5
5.6000 44.2
5.6200 43.3
5.6400 36.7
5.6600 39.8
5.6800 40.8
5.7000 39.6
5.7200 36.5
5.7400 26.7
5.7600 30.0
5.7800 25.8
5.8000 32.1
5.8200 23.3
5.8400 21.3
5.8600 18.1
5.8800 18.1
5.9000 19.4
5.9200 17.7
5.9400 19.4
5.9600 16.7
5.9800 14.4
6.0000 19.2